SubID	Block	SearchType	Feature	MotionPresent	GroupMotion	Trial	SetSize	TargetPresent	Accuracy	RTms
9998	1	conjunction	shape	Motion	none	1	3	1	1	494
9998	1	conjunction	shape	Motion	none	2	3	1	0	378
9998	1	conjunction	shape	Motion	none	3	9	1	1	758
9998	1	conjunction	shape	Motion	none	4	1	0	1	492
9998	1	conjunction	shape	Motion	none	5	11	1	1	576
9998	1	conjunction	shape	Motion	none	6	5	0	1	743
9998	1	conjunction	shape	Motion	none	7	3	0	1	663
9998	1	conjunction	shape	Motion	none	8	1	0	1	748
9998	1	conjunction	shape	Motion	none	9	11	1	1	1384
9998	1	conjunction	shape	Motion	none	10	5	1	1	770
9998	1	conjunction	shape	Motion	none	11	1	0	1	489
9998	1	conjunction	shape	Motion	none	12	7	0	1	1009
9998	1	conjunction	shape	Motion	none	13	7	1	1	1045
9998	1	conjunction	shape	Motion	none	14	1	1	0	695
9998	1	conjunction	shape	Motion	none	15	9	0	1	881
9998	1	conjunction	shape	Motion	none	16	11	0	1	1251
9998	1	conjunction	shape	Motion	none	17	7	0	1	1004
9998	1	conjunction	shape	Motion	none	18	5	1	1	589
9998	1	conjunction	shape	Motion	none	19	11	0	1	1093
9998	1	conjunction	shape	Motion	none	20	1	0	1	678
9998	1	conjunction	shape	Motion	none	21	3	1	1	531
9998	1	conjunction	shape	Motion	none	22	9	0	1	851
9998	1	conjunction	shape	Motion	none	23	7	1	1	1021
9998	1	conjunction	shape	Motion	none	24	7	1	1	757
9998	1	conjunction	shape	Motion	none	25	7	1	1	676
9998	1	conjunction	shape	Motion	none	26	11	0	1	1229
9998	1	conjunction	shape	Motion	none	27	1	1	1	781
9998	1	conjunction	shape	Motion	none	28	9	1	1	467
9998	1	conjunction	shape	Motion	none	29	9	0	1	987
9998	1	conjunction	shape	Motion	none	30	9	1	0	608
9998	1	conjunction	shape	Motion	none	31	1	0	1	760
9998	1	conjunction	shape	Motion	none	32	1	1	0	594
9998	1	conjunction	shape	Motion	none	33	5	0	1	1231
9998	1	conjunction	shape	Motion	none	34	3	1	1	666
9998	1	conjunction	shape	Motion	none	35	3	0	1	719
9998	1	conjunction	shape	Motion	none	36	5	0	1	1339
9998	1	conjunction	shape	Motion	none	37	9	1	1	758
9998	1	conjunction	shape	Motion	none	38	3	1	1	663
9998	1	conjunction	shape	Motion	none	39	9	0	1	1265
9998	1	conjunction	shape	Motion	none	40	11	0	1	1100
9998	1	conjunction	shape	Motion	none	41	11	1	1	969
9998	1	conjunction	shape	Motion	none	42	7	0	1	672
9998	1	conjunction	shape	Motion	none	43	5	0	1	758
9998	1	conjunction	shape	Motion	none	44	11	1	1	729
9998	1	conjunction	shape	Motion	none	45	5	1	1	764
9998	1	conjunction	shape	Motion	none	46	3	0	1	633
9998	1	conjunction	shape	Motion	none	47	11	0	1	787
9998	1	conjunction	shape	Motion	none	48	9	0	1	756
9998	1	conjunction	shape	Motion	none	49	11	1	1	692
9998	1	conjunction	shape	Motion	none	50	7	0	1	780
9998	1	conjunction	shape	Motion	none	51	5	0	0	581
9998	1	conjunction	shape	Motion	none	52	5	0	1	800
9998	1	conjunction	shape	Motion	none	53	9	1	1	621
9998	1	conjunction	shape	Motion	none	54	3	0	1	656
9998	1	conjunction	shape	Motion	none	55	9	0	1	842
9998	1	conjunction	shape	Motion	none	56	3	0	1	846
9998	1	conjunction	shape	Motion	none	57	5	1	1	882
9998	1	conjunction	shape	Motion	none	58	1	1	1	701
9998	1	conjunction	shape	Motion	none	59	1	1	1	671
9998	1	conjunction	shape	Motion	none	60	11	0	1	875
9998	1	conjunction	shape	Motion	none	61	3	1	1	575
9998	1	conjunction	shape	Motion	none	62	5	1	1	496
9998	1	conjunction	shape	Motion	none	63	7	1	1	498
9998	1	conjunction	shape	Motion	none	64	7	0	1	618
9998	1	conjunction	shape	Motion	none	65	7	1	1	738
9998	1	conjunction	shape	Motion	none	66	1	0	1	723
9998	1	conjunction	shape	Motion	none	67	5	1	1	577
9998	1	conjunction	shape	Motion	none	68	9	1	1	829
9998	1	conjunction	shape	Motion	none	69	1	1	1	565
9998	1	conjunction	shape	Motion	none	70	3	0	1	534
9998	1	conjunction	shape	Motion	none	71	7	0	1	737
9998	1	conjunction	shape	Motion	none	72	11	1	0	607
9998	2	conjunction	shape	Motion	none	1	7	1	1	772
9998	2	conjunction	shape	Motion	none	2	11	0	1	1191
9998	2	conjunction	shape	Motion	none	3	3	1	1	560
9998	2	conjunction	shape	Motion	none	4	7	0	1	596
9998	2	conjunction	shape	Motion	none	5	11	1	1	548
9998	2	conjunction	shape	Motion	none	6	7	1	1	685
9998	2	conjunction	shape	Motion	none	7	1	1	1	370
9998	2	conjunction	shape	Motion	none	8	9	0	1	874
9998	2	conjunction	shape	Motion	none	9	9	0	1	926
9998	2	conjunction	shape	Motion	none	10	1	1	1	529
9998	2	conjunction	shape	Motion	none	11	1	0	1	515
9998	2	conjunction	shape	Motion	none	12	11	1	1	651
9998	2	conjunction	shape	Motion	none	13	5	1	1	503
9998	2	conjunction	shape	Motion	none	14	5	0	1	923
9998	2	conjunction	shape	Motion	none	15	1	0	1	410
9998	2	conjunction	shape	Motion	none	16	7	0	1	630
9998	2	conjunction	shape	Motion	none	17	3	1	1	649
9998	2	conjunction	shape	Motion	none	18	1	1	1	752
9998	2	conjunction	shape	Motion	none	19	5	0	1	638
9998	2	conjunction	shape	Motion	none	20	7	0	1	741
9998	2	conjunction	shape	Motion	none	21	5	0	1	510
9998	2	conjunction	shape	Motion	none	22	7	1	1	680
9998	2	conjunction	shape	Motion	none	23	7	1	1	617
9998	2	conjunction	shape	Motion	none	24	5	0	1	736
9998	2	conjunction	shape	Motion	none	25	5	0	1	622
9998	2	conjunction	shape	Motion	none	26	11	0	1	659
9998	2	conjunction	shape	Motion	none	27	11	1	1	595
9998	2	conjunction	shape	Motion	none	28	9	0	1	733
9998	2	conjunction	shape	Motion	none	29	9	1	0	852
9998	2	conjunction	shape	Motion	none	30	11	0	1	1039
9998	2	conjunction	shape	Motion	none	31	3	1	1	509
9998	2	conjunction	shape	Motion	none	32	3	1	1	645
9998	2	conjunction	shape	Motion	none	33	7	1	1	382
9998	2	conjunction	shape	Motion	none	34	5	0	0	435
9998	2	conjunction	shape	Motion	none	35	3	0	1	555
9998	2	conjunction	shape	Motion	none	36	9	0	1	892
9998	2	conjunction	shape	Motion	none	37	9	1	1	879
9998	2	conjunction	shape	Motion	none	38	11	0	1	832
9998	2	conjunction	shape	Motion	none	39	11	1	1	735
9998	2	conjunction	shape	Motion	none	40	3	0	1	655
9998	2	conjunction	shape	Motion	none	41	7	0	1	843
9998	2	conjunction	shape	Motion	none	42	1	1	1	495
9998	2	conjunction	shape	Motion	none	43	11	1	1	1216
9998	2	conjunction	shape	Motion	none	44	5	1	1	719
9998	2	conjunction	shape	Motion	none	45	9	0	1	788
9998	2	conjunction	shape	Motion	none	46	9	1	1	875
9998	2	conjunction	shape	Motion	none	47	5	1	1	645
9998	2	conjunction	shape	Motion	none	48	1	0	1	599
9998	2	conjunction	shape	Motion	none	49	9	1	1	585
9998	2	conjunction	shape	Motion	none	50	7	1	1	505
9998	2	conjunction	shape	Motion	none	51	5	1	0	508
9998	2	conjunction	shape	Motion	none	52	9	0	1	829
9998	2	conjunction	shape	Motion	none	53	3	1	1	449
9998	2	conjunction	shape	Motion	none	54	3	0	1	668
9998	2	conjunction	shape	Motion	none	55	7	0	1	1156
9998	2	conjunction	shape	Motion	none	56	5	1	1	726
9998	2	conjunction	shape	Motion	none	57	3	0	1	596
9998	2	conjunction	shape	Motion	none	58	11	0	1	1016
9998	2	conjunction	shape	Motion	none	59	1	1	1	569
9998	2	conjunction	shape	Motion	none	60	3	0	1	606
9998	2	conjunction	shape	Motion	none	61	5	1	1	559
9998	2	conjunction	shape	Motion	none	62	11	1	1	863
9998	2	conjunction	shape	Motion	none	63	3	0	1	566
9998	2	conjunction	shape	Motion	none	64	7	0	1	803
9998	2	conjunction	shape	Motion	none	65	3	1	1	689
9998	2	conjunction	shape	Motion	none	66	1	1	1	526
9998	2	conjunction	shape	Motion	none	67	11	0	1	879
9998	2	conjunction	shape	Motion	none	68	9	1	0	666
9998	2	conjunction	shape	Motion	none	69	9	1	1	1003
9998	2	conjunction	shape	Motion	none	70	1	0	1	690
9998	2	conjunction	shape	Motion	none	71	1	0	1	759
9998	2	conjunction	shape	Motion	none	72	1	0	1	613
9998	3	conjunction	shape	Motion	none	1	9	0	1	776
9998	3	conjunction	shape	Motion	none	2	7	0	1	763
9998	3	conjunction	shape	Motion	none	3	3	0	1	599
9998	3	conjunction	shape	Motion	none	4	5	1	0	536
9998	3	conjunction	shape	Motion	none	5	11	0	1	1207
9998	3	conjunction	shape	Motion	none	6	3	1	1	559
9998	3	conjunction	shape	Motion	none	7	9	1	1	662
9998	3	conjunction	shape	Motion	none	8	9	0	1	1316
9998	3	conjunction	shape	Motion	none	9	9	1	1	1086
9998	3	conjunction	shape	Motion	none	10	7	0	1	856
9998	3	conjunction	shape	Motion	none	11	1	1	1	509
9998	3	conjunction	shape	Motion	none	12	11	1	1	579
9998	3	conjunction	shape	Motion	none	13	5	0	1	716
9998	3	conjunction	shape	Motion	none	14	1	1	1	436
9998	3	conjunction	shape	Motion	none	15	9	0	1	856
9998	3	conjunction	shape	Motion	none	16	1	1	1	659
9998	3	conjunction	shape	Motion	none	17	11	0	1	829
9998	3	conjunction	shape	Motion	none	18	1	1	1	532
9998	3	conjunction	shape	Motion	none	19	3	1	1	502
9998	3	conjunction	shape	Motion	none	20	1	0	1	572
9998	3	conjunction	shape	Motion	none	21	3	0	1	592
9998	3	conjunction	shape	Motion	none	22	1	0	1	546
9998	3	conjunction	shape	Motion	none	23	7	1	1	516
9998	3	conjunction	shape	Motion	none	24	7	1	1	620
9998	3	conjunction	shape	Motion	none	25	9	1	1	790
9998	3	conjunction	shape	Motion	none	26	5	0	1	643
9998	3	conjunction	shape	Motion	none	27	1	0	1	513
9998	3	conjunction	shape	Motion	none	28	11	0	1	1017
9998	3	conjunction	shape	Motion	none	29	3	1	1	602
9998	3	conjunction	shape	Motion	none	30	3	0	1	473
9998	3	conjunction	shape	Motion	none	31	9	0	1	593
9998	3	conjunction	shape	Motion	none	32	11	0	1	813
9998	3	conjunction	shape	Motion	none	33	3	1	1	533
9998	3	conjunction	shape	Motion	none	34	7	1	1	619
9998	3	conjunction	shape	Motion	none	35	1	0	1	439
9998	3	conjunction	shape	Motion	none	36	5	1	1	558
9998	3	conjunction	shape	Motion	none	37	11	1	0	961
9998	3	conjunction	shape	Motion	none	38	5	0	1	630
9998	3	conjunction	shape	Motion	none	39	1	0	1	1000
9998	3	conjunction	shape	Motion	none	40	5	0	1	636
9998	3	conjunction	shape	Motion	none	41	1	1	1	606
9998	3	conjunction	shape	Motion	none	42	7	1	1	642
9998	3	conjunction	shape	Motion	none	43	11	0	1	845
9998	3	conjunction	shape	Motion	none	44	7	0	1	731
9998	3	conjunction	shape	Motion	none	45	11	1	1	618
9998	3	conjunction	shape	Motion	none	46	11	1	1	570
9998	3	conjunction	shape	Motion	none	47	5	1	1	456
9998	3	conjunction	shape	Motion	none	48	5	0	1	492
9998	3	conjunction	shape	Motion	none	49	9	1	1	545
9998	3	conjunction	shape	Motion	none	50	3	0	1	532
9998	3	conjunction	shape	Motion	none	51	9	0	1	701
9998	3	conjunction	shape	Motion	none	52	11	1	0	872
9998	3	conjunction	shape	Motion	none	53	5	1	0	1075
9998	3	conjunction	shape	Motion	none	54	5	0	1	659
9998	3	conjunction	shape	Motion	none	55	5	1	1	513
9998	3	conjunction	shape	Motion	none	56	11	0	1	1233
9998	3	conjunction	shape	Motion	none	57	7	0	1	668
9998	3	conjunction	shape	Motion	none	58	11	1	1	522
9998	3	conjunction	shape	Motion	none	59	3	1	1	507
9998	3	conjunction	shape	Motion	none	60	1	1	1	427
9998	3	conjunction	shape	Motion	none	61	7	0	1	596
9998	3	conjunction	shape	Motion	none	62	9	1	1	849
9998	3	conjunction	shape	Motion	none	63	3	1	1	468
9998	3	conjunction	shape	Motion	none	64	9	0	1	838
9998	3	conjunction	shape	Motion	none	65	7	1	1	441
9998	3	conjunction	shape	Motion	none	66	7	0	1	843
9998	3	conjunction	shape	Motion	none	67	5	1	1	746
9998	3	conjunction	shape	Motion	none	68	3	0	1	566
9998	3	conjunction	shape	Motion	none	69	7	1	1	668
9998	3	conjunction	shape	Motion	none	70	1	0	1	571
9998	3	conjunction	shape	Motion	none	71	9	1	1	625
9998	3	conjunction	shape	Motion	none	72	3	0	1	611
9998	4	conjunction	shape	Motion	none	1	5	1	1	616
9998	4	conjunction	shape	Motion	none	2	3	0	1	686
9998	4	conjunction	shape	Motion	none	3	5	1	1	655
9998	4	conjunction	shape	Motion	none	4	1	0	1	525
9998	4	conjunction	shape	Motion	none	5	11	1	1	912
9998	4	conjunction	shape	Motion	none	6	5	1	1	580
9998	4	conjunction	shape	Motion	none	7	5	0	1	584
9998	4	conjunction	shape	Motion	none	8	3	1	1	1003
9998	4	conjunction	shape	Motion	none	9	7	1	1	956
9998	4	conjunction	shape	Motion	none	10	1	0	1	509
9998	4	conjunction	shape	Motion	none	11	11	0	1	1379
9998	4	conjunction	shape	Motion	none	12	11	0	1	1299
9998	4	conjunction	shape	Motion	none	13	5	1	1	633
9998	4	conjunction	shape	Motion	none	14	9	0	1	653
9998	4	conjunction	shape	Motion	none	15	3	1	1	589
9998	4	conjunction	shape	Motion	none	16	7	1	1	525
9998	4	conjunction	shape	Motion	none	17	9	1	1	578
9998	4	conjunction	shape	Motion	none	18	5	0	1	531
9998	4	conjunction	shape	Motion	none	19	7	1	1	467
9998	4	conjunction	shape	Motion	none	20	9	0	1	603
9998	4	conjunction	shape	Motion	none	21	1	1	1	439
9998	4	conjunction	shape	Motion	none	22	9	0	1	725
9998	4	conjunction	shape	Motion	none	23	11	1	1	544
9998	4	conjunction	shape	Motion	none	24	1	0	1	480
9998	4	conjunction	shape	Motion	none	25	1	0	1	417
9998	4	conjunction	shape	Motion	none	26	5	0	1	770
9998	4	conjunction	shape	Motion	none	27	11	1	1	1757
9998	4	conjunction	shape	Motion	none	28	11	1	1	592
9998	4	conjunction	shape	Motion	none	29	5	1	1	428
9998	4	conjunction	shape	Motion	none	30	11	0	1	1515
9998	4	conjunction	shape	Motion	none	31	9	1	1	1201
9998	4	conjunction	shape	Motion	none	32	1	1	1	520
9998	4	conjunction	shape	Motion	none	33	5	0	1	523
9998	4	conjunction	shape	Motion	none	34	7	0	1	993
9998	4	conjunction	shape	Motion	none	35	3	1	1	712
9998	4	conjunction	shape	Motion	none	36	3	0	1	598
9998	4	conjunction	shape	Motion	none	37	9	1	1	818
9998	4	conjunction	shape	Motion	none	38	3	0	1	554
9998	4	conjunction	shape	Motion	none	39	1	0	1	524
9998	4	conjunction	shape	Motion	none	40	5	0	1	577
9998	4	conjunction	shape	Motion	none	41	7	1	1	613
9998	4	conjunction	shape	Motion	none	42	9	1	1	566
9998	4	conjunction	shape	Motion	none	43	11	1	1	535
9998	4	conjunction	shape	Motion	none	44	7	0	1	888
9998	4	conjunction	shape	Motion	none	45	3	0	1	524
9998	4	conjunction	shape	Motion	none	46	1	1	1	527
9998	4	conjunction	shape	Motion	none	47	7	0	1	580
9998	4	conjunction	shape	Motion	none	48	11	1	1	533
9998	4	conjunction	shape	Motion	none	49	3	0	1	486
9998	4	conjunction	shape	Motion	none	50	7	0	1	538
9998	4	conjunction	shape	Motion	none	51	7	1	1	424
9998	4	conjunction	shape	Motion	none	52	11	0	1	711
9998	4	conjunction	shape	Motion	none	53	1	1	1	580
9998	4	conjunction	shape	Motion	none	54	9	1	1	566
9998	4	conjunction	shape	Motion	none	55	9	0	1	986
9998	4	conjunction	shape	Motion	none	56	9	1	1	605
9998	4	conjunction	shape	Motion	none	57	7	0	1	725
9998	4	conjunction	shape	Motion	none	58	1	0	1	761
9998	4	conjunction	shape	Motion	none	59	3	0	1	581
9998	4	conjunction	shape	Motion	none	60	5	1	1	533
9998	4	conjunction	shape	Motion	none	61	9	0	1	1120
9998	4	conjunction	shape	Motion	none	62	3	1	1	558
9998	4	conjunction	shape	Motion	none	63	5	0	1	492
9998	4	conjunction	shape	Motion	none	64	9	0	1	745
9998	4	conjunction	shape	Motion	none	65	11	0	1	2533
9998	4	conjunction	shape	Motion	none	66	3	1	1	1483
9998	4	conjunction	shape	Motion	none	67	3	1	1	635
9998	4	conjunction	shape	Motion	none	68	1	1	1	471
9998	4	conjunction	shape	Motion	none	69	11	0	1	707
9998	4	conjunction	shape	Motion	none	70	7	1	1	527
9998	4	conjunction	shape	Motion	none	71	7	0	1	580
9998	4	conjunction	shape	Motion	none	72	1	1	1	466
